File: mti_extract_write_plot/example/data/09092019_Li-TiO2-Bronze-3nm-p2_05_6.txt
Cycle ID	Cap_Chg(mAh)	Cap_DChg(mAh)	RCap_Chg(mAh/g)	RCap_DChg(mAh/g)	Efficiency(%)	Engy_Chg(mWh)	Engy_DChg(mWh)	Mid-value Voltage(mV)	CC_Chg_Cap(mAh)	CC_Chg_Rat(%)	Platform_Cap(mAh)	Platform_RCap(mAh/g)	Platform_Efficiency(%)	Platform_Time	Capacitance_Chg(F)	Capacitance_DChg(F)	rd(mO)	REngy_Chg(mWh/g)	REngy_DChg(mWh/g)	Energy Efficiency(%)
	Step ID	Step Type	Step Time(H:M:S:ms)	Cap(mAh)	CmpCap(mAh/g)	Energy(mWh)	CmpEng(mWh/g)	Capacitance_Chg(F)	Start Vol(mV)	End Vol(mV)	Start Temperature(?)	End Temperature(?)
		Record ID	Time(H:M:S:ms)	Vol(mV)	Cur(mA)	Temperature(?)	Cap(mAh)	CmpCap(mAh/g)	Energy(mWh)	CmpEng(mWh/g)	Realtime
1	0.000	1.817	0.000	1817.413	0.00	0.000	2.767	1516.6	0.000	0.00	1.817	1816.568	99.95	11:49:10	0.0000	0.0000	0.0000	0.000	2766.635	0.00%
		28	0:02:15:000	3277.5	0.000	0.0	0.000	0.000	0.000	0.0	2019-09-09 16:38:59
		57	0:04:40:000	3276.9	0.000	0.0	0.000	0.000	0.000	0.0	2019-09-09 16:41:24
		86	0:07:05:000	3275.9	0.000	0.0	0.000	0.000	0.000	0.0	2019-09-09 16:43:49
		115	0:09:30:000	3275.0	0.000	0.0	0.000	0.000	0.000	0.0	2019-09-09 16:46:14
		144	0:11:55:000	3274.1	0.000	0.0	0.000	0.000	0.000	0.0	2019-09-09 16:48:39
		173	0:14:20:000	3273.1	0.000	0.0	0.000	0.000	0.000	0.0	2019-09-09 16:51:04
		202	0:16:45:000	3272.2	0.000	0.0	0.000	0.000	0.000	0.0	2019-09-09 16:53:29
		231	0:19:10:000	3271.3	0.000	0.0	0.000	0.000	0.000	0.0	2019-09-09 16:55:54
		260	0:21:35:000	3270.3	0.000	0.0	0.000	0.000	0.000	0.0	2019-09-09 16:58:19
		289	0:24:00:000	3269.4	0.000	0.0	0.000	0.000	0.000	0.0	2019-09-09 17:00:44
		318	0:26:25:000	3268.5	0.000	0.0	0.000	0.000	0.000	0.0	2019-09-09 17:03:09
		347	0:28:50:000	3267.6	0.000	0.0	0.000	0.000	0.000	0.0	2019-09-09 17:05:34
		376	0:31:15:000	3266.3	0.000	0.0	0.000	0.000	0.000	0.0	2019-09-09 17:07:59
		405	0:33:40:000	3265.4	0.000	0.0	0.000	0.000	0.000	0.0	2019-09-09 17:10:24
		434	0:36:05:000	3264.5	0.000	0.0	0.000	0.000	0.000	0.0	2019-09-09 17:12:49
		463	0:38:30:000	3263.2	0.000	0.0	0.000	0.000	0.000	0.0	2019-09-09 17:15:14
		492	0:40:55:000	3262.3	0.000	0.0	0.000	0.000	0.000	0.0	2019-09-09 17:17:39
		521	0:43:20:000	3261.4	0.000	0.0	0.000	0.000	0.000	0.0	2019-09-09 17:20:04
		550	0:45:45:000	3260.1	0.000	0.0	0.000	0.000	0.000	0.0	2019-09-09 17:22:29
		579	0:48:10:000	3259.5	0.000	0.0	0.000	0.000	0.000	0.0	2019-09-09 17:24:54
		608	0:50:35:000	3257.9	0.000	0.0	0.000	0.000	0.000	0.0	2019-09-09 17:27:19
		637	0:53:00:000	3257.0	0.000	0.0	0.000	0.000	0.000	0.0	2019-09-09 17:29:44
		666	0:55:25:000	3256.1	0.000	0.0	0.000	0.000	0.000	0.0	2019-09-09 17:32:09
		695	0:57:50:000	3254.8	0.000	0.0	0.000	0.000	0.000	0.0	2019-09-09 17:34:34
		724	1:00:15:000	3253.9	0.000	0.0	0.000	0.000	0.000	0.0	2019-09-09 17:36:59
		753	1:02:40:000	3253.0	0.000	0.0	0.000	0.000	0.000	0.0	2019-09-09 17:39:24
		782	1:05:05:000	3252.1	0.000	0.0	0.000	0.000	0.000	0.0	2019-09-09 17:41:49
		811	1:07:30:000	3251.1	0.000	0.0	0.000	0.000	0.000	0.0	2019-09-09 17:44:14
		840	1:09:55:000	3249.9	0.000	0.0	0.000	0.000	0.000	0.0	2019-09-09 17:46:39
		869	1:12:20:000	3249.0	0.000	0.0	0.000	0.000	0.000	0.0	2019-09-09 17:49:04
		898	1:14:45:000	3248.0	0.000	0.0	0.000	0.000	0.000	0.0	2019-09-09 17:51:29
		927	1:17:10:000	3247.1	0.000	0.0	0.000	0.000	0.000	0.0	2019-09-09 17:53:54
		956	1:19:35:000	3246.2	0.000	0.0	0.000	0.000	0.000	0.0	2019-09-09 17:56:19
		984	0:01:45:000	2495.3	-0.152	0.0	0.004	4.432	0.012	12.0	2019-09-09 17:58:38
		1013	0:04:10:000	2413.5	-0.151	0.0	0.011	10.552	0.027	27.0	2019-09-09 18:01:03
		1042	0:06:35:000	2362.6	-0.152	0.0	0.017	16.670	0.042	41.6	2019-09-09 18:03:28
		1071	0:09:00:000	2358.3	-0.152	0.0	0.045	45.021	0.108	107.5	2019-09-09 18:05:53
		1100	0:11:25:000	2344.6	-0.152	0.0	0.051	51.137	0.122	121.9	2019-09-09 18:08:18
		1129	0:13:50:000	2321.4	-0.152	0.0	0.057	57.251	0.136	136.2	2019-09-09 18:10:43
		1158	0:16:15:000	2297.5	-0.152	0.0	0.063	63.361	0.150	150.4	2019-09-09 18:13:08
		1187	0:18:40:000	2275.5	-0.152	0.0	0.069	69.467	0.164	164.4	2019-09-09 18:15:33
		1216	0:21:05:000	2254.7	-0.151	0.0	0.076	75.573	0.178	178.3	2019-09-09 18:17:58
		1245	0:23:30:000	2235.2	-0.151	0.0	0.082	81.685	0.192	192.0	2019-09-09 18:20:23
		1274	0:25:55:000	2216.9	-0.152	0.0	0.088	87.795	0.206	205.7	2019-09-09 18:22:48
		1303	0:28:20:000	2199.5	-0.152	0.0	0.094	93.904	0.219	219.2	2019-09-09 18:25:13
		1332	0:30:45:000	2182.8	-0.152	0.0	0.100	100.016	0.233	232.6	2019-09-09 18:27:38
		1361	0:33:10:000	2167.6	-0.152	0.0	0.106	106.126	0.246	245.9	2019-09-09 18:30:03
		1390	0:35:35:000	2152.1	-0.152	0.0	0.112	112.238	0.259	259.2	2019-09-09 18:32:28
		1419	0:38:00:000	2137.5	-0.151	0.0	0.118	118.350	0.272	272.3	2019-09-09 18:34:53
		1448	0:40:25:000	2123.9	-0.152	0.0	0.124	124.458	0.285	285.4	2019-09-09 18:37:18
		1477	0:42:50:000	2109.9	-0.152	0.0	0.131	130.568	0.298	298.3	2019-09-09 18:39:43
		1506	0:45:15:000	2096.6	-0.152	0.0	0.137	136.677	0.311	311.2	2019-09-09 18:42:08
		1535	0:47:40:000	2084.2	-0.152	0.0	0.143	142.787	0.324	324.0	2019-09-09 18:44:33
		1564	0:50:05:000	2071.2	-0.152	0.0	0.149	148.897	0.337	336.8	2019-09-09 18:46:58
		1593	0:52:30:000	2058.8	-0.152	0.0	0.155	155.008	0.349	349.4	2019-09-09 18:49:23
		1622	0:54:55:000	2047.0	-0.151	0.0	0.161	161.118	0.362	362.0	2019-09-09 18:51:48
		1651	0:57:20:000	2034.9	-0.151	0.0	0.167	167.225	0.374	374.5	2019-09-09 18:54:13
		1680	0:59:45:000	2023.8	-0.151	0.0	0.173	173.333	0.387	386.9	2019-09-09 18:56:38
		1709	1:02:10:000	2012.3	-0.151	0.0	0.179	179.445	0.399	399.3	2019-09-09 18:59:03
		1738	1:04:35:000	2001.4	-0.152	0.0	0.186	185.553	0.412	411.6	2019-09-09 19:01:28
		1767	1:07:00:000	1990.6	-0.151	0.0	0.192	191.661	0.424	423.8	2019-09-09 19:03:53
		1796	1:09:25:000	1980.0	-0.152	0.0	0.198	197.773	0.436	436.0	2019-09-09 19:06:18
		1825	1:11:50:000	1969.8	-0.152	0.0	0.204	203.885	0.448	448.1	2019-09-09 19:08:43
		1854	1:14:15:000	1959.6	-0.152	0.0	0.210	209.998	0.460	460.1	2019-09-09 19:11:08
		1883	1:16:40:000	1949.7	-0.152	0.0	0.216	216.108	0.472	472.1	2019-09-09 19:13:33
		1912	1:19:05:000	1940.1	-0.152	0.0	0.222	222.222	0.484	484.0	2019-09-09 19:15:58
		1941	1:21:30:000	1930.4	-0.152	0.0	0.228	228.335	0.496	495.9	2019-09-09 19:18:23
		1970	1:23:55:000	1921.1	-0.152	0.0	0.234	234.447	0.508	507.7	2019-09-09 19:20:48
		1999	1:26:20:000	1912.2	-0.152	0.0	0.241	240.559	0.519	519.4	2019-09-09 19:23:13
		2028	1:28:45:000	1903.5	-0.152	0.0	0.247	246.674	0.531	531.1	2019-09-09 19:25:38
		2057	1:31:10:000	1894.8	-0.152	0.0	0.253	252.783	0.543	542.7	2019-09-09 19:28:03
		2086	1:33:35:000	1886.1	-0.152	0.0	0.259	258.896	0.554	554.3	2019-09-09 19:30:28
		2115	1:36:00:000	1878.1	-0.152	0.0	0.265	265.011	0.566	565.8	2019-09-09 19:32:53
		2144	1:38:25:000	1870.0	-0.152	0.0	0.271	271.124	0.577	577.3	2019-09-09 19:35:18
		2173	1:40:50:000	1862.2	-0.152	0.0	0.277	277.238	0.589	588.8	2019-09-09 19:37:43
		2202	1:43:15:000	1855.1	-0.152	0.0	0.283	283.351	0.600	600.1	2019-09-09 19:40:08
		2231	1:45:40:000	1847.4	-0.152	0.0	0.289	289.466	0.611	611.5	2019-09-09 19:42:33
		2260	1:48:05:000	1840.2	-0.152	0.0	0.296	295.576	0.623	622.8	2019-09-09 19:44:58
		2289	1:50:30:000	1833.4	-0.152	0.0	0.302	301.693	0.634	634.0	2019-09-09 19:47:23
		2318	1:52:55:000	1826.6	-0.152	0.0	0.308	307.806	0.645	645.2	2019-09-09 19:49:48
		2347	1:55:20:000	1820.1	-0.151	0.0	0.314	313.923	0.656	656.4	2019-09-09 19:52:13
		2376	1:57:45:000	1813.9	-0.152	0.0	0.320	320.041	0.668	667.6	2019-09-09 19:54:38
		2405	2:00:10:000	1807.7	-0.152	0.0	0.326	326.156	0.679	678.7	2019-09-09 19:57:03
		2434	2:02:35:000	1801.5	-0.152	0.0	0.332	332.272	0.690	689.7	2019-09-09 19:59:28
		2463	2:05:00:000	1795.9	-0.152	0.0	0.338	338.389	0.701	700.7	2019-09-09 20:01:53
		2492	2:07:25:000	1790.0	-0.152	0.0	0.345	344.506	0.712	711.7	2019-09-09 20:04:18
		2521	2:09:50:000	1784.7	-0.151	0.0	0.351	350.623	0.723	722.7	2019-09-09 20:06:43
		2550	2:12:15:000	1779.8	-0.152	0.0	0.357	356.741	0.734	733.6	2019-09-09 20:09:08
		2579	2:14:40:000	1774.8	-0.152	0.0	0.363	362.856	0.745	744.5	2019-09-09 20:11:33
		2608	2:17:05:000	1769.9	-0.152	0.0	0.369	368.973	0.755	755.4	2019-09-09 20:13:58
		2637	2:19:30:000	1765.2	-0.152	0.0	0.375	375.087	0.766	766.2	2019-09-09 20:16:23
		2666	2:21:55:000	1760.9	-0.152	0.0	0.381	381.201	0.777	777.0	2019-09-09 20:18:48
		2695	2:24:20:000	1756.8	-0.152	0.0	0.387	387.318	0.788	787.8	2019-09-09 20:21:13
		2724	2:26:45:000	1752.8	-0.152	0.0	0.393	393.435	0.799	798.5	2019-09-09 20:23:38
		2753	2:29:10:000	1748.8	-0.152	0.0	0.400	399.551	0.809	809.3	2019-09-09 20:26:03
		2782	2:31:35:000	1745.4	-0.151	0.0	0.406	405.666	0.820	820.0	2019-09-09 20:28:28
		2811	2:34:00:000	1742.0	-0.152	0.0	0.412	411.780	0.831	830.6	2019-09-09 20:30:53
		2840	2:36:25:000	1738.9	-0.152	0.0	0.418	417.893	0.841	841.3	2019-09-09 20:33:18
		2869	2:38:50:000	1736.1	-0.151	0.0	0.424	424.009	0.852	852.0	2019-09-09 20:35:43
		2898	2:41:15:000	1733.3	-0.152	0.0	0.430	430.126	0.863	862.6	2019-09-09 20:38:08
		2927	2:43:40:000	1730.8	-0.151	0.0	0.436	436.242	0.873	873.2	2019-09-09 20:40:33
		2956	2:46:05:000	1728.0	-0.152	0.0	0.442	442.356	0.884	883.8	2019-09-09 20:42:58
		2985	2:48:30:000	1725.5	-0.152	0.0	0.448	448.470	0.894	894.4	2019-09-09 20:45:23
		3014	2:50:55:000	1723.0	-0.151	0.0	0.455	454.588	0.905	905.0	2019-09-09 20:47:48
		3043	2:53:20:000	1720.3	-0.152	0.0	0.461	460.704	0.915	915.5	2019-09-09 20:50:13
		3072	2:55:45:000	1717.8	-0.151	0.0	0.467	466.814	0.926	926.0	2019-09-09 20:52:38
		3101	2:58:10:000	1715.3	-0.152	0.0	0.473	472.924	0.937	936.5	2019-09-09 20:55:03
		3130	3:00:35:000	1712.8	-0.152	0.0	0.479	479.039	0.947	947.0	2019-09-09 20:57:28
		3159	3:03:00:000	1710.3	-0.152	0.0	0.485	485.156	0.958	957.5	2019-09-09 20:59:53
		3188	3:05:25:000	1707.5	-0.152	0.0	0.491	491.271	0.968	968.0	2019-09-09 21:02:18
		3217	3:07:50:000	1705.1	-0.152	0.0	0.497	497.387	0.978	978.5	2019-09-09 21:04:43
		3246	3:10:15:000	1702.6	-0.152	0.0	0.503	503.499	0.989	988.9	2019-09-09 21:07:08
		3275	3:12:40:000	1700.1	-0.152	0.0	0.510	509.614	0.999	999.3	2019-09-09 21:09:33
		3304	3:15:05:000	1697.6	-0.152	0.0	0.516	515.730	1.010	1009.7	2019-09-09 21:11:58
		3333	3:17:30:000	1694.8	-0.151	0.0	0.522	521.844	1.020	1020.1	2019-09-09 21:14:23
		3362	3:19:55:000	1692.3	-0.152	0.0	0.528	527.957	1.031	1030.5	2019-09-09 21:16:48
		3391	3:22:20:000	1689.9	-0.152	0.0	0.534	534.071	1.041	1040.9	2019-09-09 21:19:13
		3420	3:24:45:000	1687.1	-0.152	0.0	0.540	540.187	1.051	1051.2	2019-09-09 21:21:38
		3449	3:27:10:000	1684.9	-0.152	0.0	0.546	546.300	1.062	1061.6	2019-09-09 21:24:03
		3478	3:29:35:000	1682.4	-0.152	0.0	0.552	552.417	1.072	1071.9	2019-09-09 21:26:28
		3507	3:32:00:000	1679.9	-0.152	0.0	0.559	558.532	1.082	1082.2	2019-09-09 21:28:53
		3536	3:34:25:000	1677.5	-0.152	0.0	0.565	564.647	1.092	1092.5	2019-09-09 21:31:18
		3565	3:36:50:000	1675.3	-0.152	0.0	0.571	570.759	1.103	1102.7	2019-09-09 21:33:43
		3594	3:39:15:000	1673.1	-0.152	0.0	0.577	576.874	1.113	1113.0	2019-09-09 21:36:08
		3623	3:41:40:000	1670.6	-0.152	0.0	0.583	582.983	1.123	1123.2	2019-09-09 21:38:33
		3652	3:44:05:000	1668.5	-0.152	0.0	0.589	589.096	1.133	1133.4	2019-09-09 21:40:58
		3681	3:46:30:000	1666.0	-0.152	0.0	0.595	595.208	1.144	1143.7	2019-09-09 21:43:23
		3710	3:48:55:000	1663.8	-0.152	0.0	0.601	601.319	1.154	1153.9	2019-09-09 21:45:48
		3739	3:51:20:000	1662.0	-0.151	0.0	0.607	607.428	1.164	1164.0	2019-09-09 21:48:13
		3768	3:53:45:000	1659.8	-0.152	0.0	0.614	613.538	1.174	1174.2	2019-09-09 21:50:38
		3797	3:56:10:000	1657.6	-0.152	0.0	0.620	619.647	1.184	1184.4	2019-09-09 21:53:03
		3826	3:58:35:000	1655.8	-0.152	0.0	0.626	625.753	1.194	1194.5	2019-09-09 21:55:28
		3855	4:01:00:000	1653.6	-0.152	0.0	0.632	631.861	1.205	1204.6	2019-09-09 21:57:53
		3884	4:03:25:000	1651.7	-0.152	0.0	0.638	637.968	1.215	1214.8	2019-09-09 22:00:18
		3913	4:05:50:000	1649.6	-0.152	0.0	0.644	644.078	1.225	1224.9	2019-09-09 22:02:43
		3942	4:08:15:000	1647.7	-0.151	0.0	0.650	650.186	1.235	1235.0	2019-09-09 22:05:08
		3971	4:10:40:000	1645.2	-0.152	0.0	0.656	656.296	1.245	1245.0	2019-09-09 22:07:33
		4000	4:13:05:000	1643.4	-0.152	0.0	0.662	662.402	1.255	1255.1	2019-09-09 22:09:58
		4029	4:15:30:000	1641.5	-0.152	0.0	0.669	668.510	1.265	1265.2	2019-09-09 22:12:23
		4058	4:17:55:000	1639.3	-0.152	0.0	0.675	674.624	1.275	1275.2	2019-09-09 22:14:48
		4087	4:20:20:000	1637.2	-0.152	0.0	0.681	680.734	1.285	1285.2	2019-09-09 22:17:13
		4116	4:22:45:000	1635.3	-0.151	0.0	0.687	686.843	1.295	1295.3	2019-09-09 22:19:38
		4145	4:25:10:000	1633.1	-0.152	0.0	0.693	692.952	1.305	1305.3	2019-09-09 22:22:03
		4174	4:27:35:000	1631.0	-0.152	0.0	0.699	699.065	1.315	1315.3	2019-09-09 22:24:28
		4203	4:30:00:000	1629.1	-0.152	0.0	0.705	705.176	1.325	1325.2	2019-09-09 22:26:53
		4232	4:32:25:000	1626.6	-0.152	0.0	0.711	711.287	1.335	1335.2	2019-09-09 22:29:18
		4261	4:34:50:000	1623.8	-0.152	0.0	0.717	717.396	1.345	1345.2	2019-09-09 22:31:43
		4290	4:37:15:000	1621.7	-0.152	0.0	0.724	723.511	1.355	1355.1	2019-09-09 22:34:08
		4319	4:39:40:000	1619.2	-0.151	0.0	0.730	729.625	1.365	1365.1	2019-09-09 22:36:33
		4348	4:42:05:000	1616.7	-0.152	0.0	0.736	735.737	1.375	1375.0	2019-09-09 22:38:58
		4377	4:44:30:000	1613.9	-0.152	0.0	0.742	741.850	1.385	1384.9	2019-09-09 22:41:23
		4406	4:46:55:000	1611.4	-0.151	0.0	0.748	747.965	1.395	1394.7	2019-09-09 22:43:48
		4435	4:49:20:000	1608.6	-0.152	0.0	0.754	754.078	1.405	1404.6	2019-09-09 22:46:13
		4464	4:51:45:000	1605.9	-0.151	0.0	0.760	760.190	1.414	1414.4	2019-09-09 22:48:38
		4493	4:54:10:000	1602.8	-0.152	0.0	0.766	766.302	1.424	1424.3	2019-09-09 22:51:03
		4522	4:56:35:000	1600.0	-0.152	0.0	0.772	772.415	1.434	1434.1	2019-09-09 22:53:28
		4551	4:59:00:000	1596.9	-0.151	0.0	0.779	778.528	1.444	1443.9	2019-09-09 22:55:53
		4580	5:01:25:000	1593.8	-0.152	0.0	0.785	784.642	1.454	1453.6	2019-09-09 22:58:18
		4609	5:03:50:000	1590.4	-0.152	0.0	0.791	790.759	1.463	1463.4	2019-09-09 23:00:43
		4638	5:06:15:000	1587.3	-0.152	0.0	0.797	796.877	1.473	1473.1	2019-09-09 23:03:08
		4667	5:08:40:000	1583.5	-0.152	0.0	0.803	802.994	1.483	1482.8	2019-09-09 23:05:33
		4696	5:11:05:000	1580.1	-0.152	0.0	0.809	809.114	1.493	1492.6	2019-09-09 23:07:58
		4725	5:13:30:000	1576.4	-0.151	0.0	0.815	815.230	1.502	1502.2	2019-09-09 23:10:23
		4754	5:15:55:000	1573.0	-0.152	0.0	0.821	821.347	1.512	1511.9	2019-09-09 23:12:48
		4783	5:18:20:000	1569.3	-0.152	0.0	0.827	827.462	1.521	1521.5	2019-09-09 23:15:13
		4812	5:20:45:000	1565.6	-0.152	0.0	0.834	833.576	1.531	1531.1	2019-09-09 23:17:38
		4841	5:23:10:000	1561.5	-0.151	0.0	0.840	839.692	1.541	1540.7	2019-09-09 23:20:03
		4870	5:25:35:000	1557.8	-0.152	0.0	0.846	845.810	1.550	1550.2	2019-09-09 23:22:28
		4899	5:28:00:000	1554.1	-0.152	0.0	0.852	851.926	1.560	1559.8	2019-09-09 23:24:53
		4928	5:30:25:000	1550.4	-0.152	0.0	0.858	858.043	1.569	1569.3	2019-09-09 23:27:18
		4957	5:32:50:000	1546.3	-0.152	0.0	0.864	864.163	1.579	1578.8	2019-09-09 23:29:43
		4986	5:35:15:000	1542.0	-0.152	0.0	0.870	870.278	1.588	1588.2	2019-09-09 23:32:08
		5015	5:37:40:000	1538.3	-0.152	0.0	0.876	876.395	1.598	1597.7	2019-09-09 23:34:33
		5044	5:40:05:000	1534.2	-0.151	0.0	0.883	882.511	1.607	1607.1	2019-09-09 23:36:58
		5073	5:42:30:000	1530.2	-0.151	0.0	0.889	888.625	1.616	1616.5	2019-09-09 23:39:23
		5102	5:44:55:000	1525.9	-0.152	0.0	0.895	894.739	1.626	1625.8	2019-09-09 23:41:48
		5131	5:47:20:000	1521.8	-0.152	0.0	0.901	900.856	1.635	1635.2	2019-09-09 23:44:13
		5160	5:49:45:000	1517.5	-0.152	0.0	0.907	906.971	1.644	1644.5	2019-09-09 23:46:38
		5189	5:52:10:000	1513.5	-0.151	0.0	0.913	913.086	1.654	1653.8	2019-09-09 23:49:03
		5218	5:54:35:000	1509.4	-0.152	0.0	0.919	919.204	1.663	1663.0	2019-09-09 23:51:28
		5247	5:57:00:000	1505.4	-0.152	0.0	0.925	925.321	1.672	1672.2	2019-09-09 23:53:53
		5276	5:59:25:000	1500.8	-0.152	0.0	0.931	931.436	1.681	1681.5	2019-09-09 23:56:18
		5305	6:01:50:000	1496.7	-0.152	0.0	0.938	937.552	1.691	1690.6	2019-09-09 23:58:43
		5334	6:04:15:000	1492.7	-0.152	0.0	0.944	943.664	1.700	1699.8	2019-09-10 00:01:08
		5363	6:06:40:000	1488.4	-0.152	0.0	0.950	949.775	1.709	1708.9	2019-09-10 00:03:33
		5392	6:09:05:000	1484.3	-0.152	0.0	0.956	955.892	1.718	1718.0	2019-09-10 00:05:58
		5421	6:11:30:000	1479.7	-0.151	0.0	0.962	962.001	1.727	1727.1	2019-09-10 00:08:23
		5450	6:13:55:000	1475.3	-0.151	0.0	0.968	968.109	1.736	1736.1	2019-09-10 00:10:48
		5479	6:16:20:000	1471.0	-0.152	0.0	0.974	974.222	1.745	1745.2	2019-09-10 00:13:13
		5508	6:18:45:000	1467.0	-0.151	0.0	0.980	980.335	1.754	1754.2	2019-09-10 00:15:38
		5537	6:21:10:000	1462.6	-0.152	0.0	0.986	986.450	1.763	1763.1	2019-09-10 00:18:03
		5566	6:23:35:000	1458.0	-0.152	0.0	0.993	992.566	1.772	1772.1	2019-09-10 00:20:28
		5595	6:26:00:000	1453.6	-0.152	0.0	0.999	998.681	1.781	1781.0	2019-09-10 00:22:53
		5624	6:28:25:000	1449.3	-0.152	0.0	1.005	1004.798	1.790	1789.9	2019-09-10 00:25:18
		5653	6:30:50:000	1445.3	-0.152	0.0	1.011	1010.916	1.799	1798.8	2019-09-10 00:27:43
		5682	6:33:15:000	1440.9	-0.152	0.0	1.017	1017.033	1.808	1807.6	2019-09-10 00:30:08
		5711	6:35:40:000	1436.3	-0.152	0.0	1.023	1023.149	1.816	1816.4	2019-09-10 00:32:33
		5740	6:38:05:000	1431.9	-0.151	0.0	1.029	1029.264	1.825	1825.2	2019-09-10 00:34:58
		5769	6:40:30:000	1427.6	-0.152	0.0	1.035	1035.378	1.834	1833.9	2019-09-10 00:37:23
		5798	6:42:55:000	1423.3	-0.152	0.0	1.041	1041.495	1.843	1842.7	2019-09-10 00:39:48
		5827	6:45:20:000	1418.3	-0.151	0.0	1.048	1047.613	1.851	1851.4	2019-09-10 00:42:13
		5856	6:47:45:000	1414.3	-0.152	0.0	1.054	1053.729	1.860	1860.1	2019-09-10 00:44:38
		5885	6:50:10:000	1409.6	-0.151	0.0	1.060	1059.846	1.869	1868.7	2019-09-10 00:47:03
		5914	6:52:35:000	1405.3	-0.152	0.0	1.066	1065.964	1.877	1877.3	2019-09-10 00:49:28
		5943	6:55:00:000	1401.2	-0.152	0.0	1.072	1072.080	1.886	1885.9	2019-09-10 00:51:53
		5972	6:57:25:000	1396.6	-0.151	0.0	1.078	1078.198	1.895	1894.5	2019-09-10 00:54:18
		6001	6:59:50:000	1392.2	-0.152	0.0	1.084	1084.315	1.903	1903.0	2019-09-10 00:56:43
		6030	7:02:15:000	1387.9	-0.152	0.0	1.090	1090.431	1.912	1911.6	2019-09-10 00:59:08
		6059	7:04:40:000	1383.6	-0.152	0.0	1.097	1096.546	1.920	1920.0	2019-09-10 01:01:33
		6088	7:07:05:000	1379.2	-0.152	0.0	1.103	1102.658	1.928	1928.5	2019-09-10 01:03:58
		6117	7:09:30:000	1374.6	-0.152	0.0	1.109	1108.771	1.937	1936.9	2019-09-10 01:06:23
		6146	7:11:55:000	1370.2	-0.152	0.0	1.115	1114.889	1.945	1945.3	2019-09-10 01:08:48
		6175	7:14:20:000	1365.9	-0.152	0.0	1.121	1121.002	1.954	1953.7	2019-09-10 01:11:13
		6204	7:16:45:000	1361.6	-0.152	0.0	1.127	1127.116	1.962	1962.1	2019-09-10 01:13:38
		6233	7:19:10:000	1357.2	-0.151	0.0	1.133	1133.234	1.970	1970.4	2019-09-10 01:16:03
		6262	7:21:35:000	1352.6	-0.152	0.0	1.139	1139.350	1.979	1978.7	2019-09-10 01:18:28
		6291	7:24:00:000	1348.2	-0.151	0.0	1.145	1145.461	1.987	1987.0	2019-09-10 01:20:53
		6320	7:26:25:000	1344.2	-0.152	0.0	1.152	1151.573	1.995	1995.2	2019-09-10 01:23:18
		6349	7:28:50:000	1339.9	-0.151	0.0	1.158	1157.687	2.003	2003.4	2019-09-10 01:25:43
		6378	7:31:15:000	1335.5	-0.152	0.0	1.164	1163.800	2.012	2011.6	2019-09-10 01:28:08
		6407	7:33:40:000	1331.2	-0.152	0.0	1.170	1169.912	2.020	2019.8	2019-09-10 01:30:33
		6436	7:36:05:000	1327.1	-0.151	0.0	1.176	1176.025	2.028	2027.9	2019-09-10 01:32:58
		6465	7:38:30:000	1322.8	-0.151	0.0	1.182	1182.138	2.036	2036.0	2019-09-10 01:35:23
		6494	7:40:55:000	1318.8	-0.152	0.0	1.188	1188.251	2.044	2044.1	2019-09-10 01:37:48
		6523	7:43:20:000	1314.1	-0.151	0.0	1.194	1194.363	2.052	2052.2	2019-09-10 01:40:13
		6552	7:45:45:000	1310.1	-0.152	0.0	1.200	1200.478	2.060	2060.2	2019-09-10 01:42:38
		6581	7:48:10:000	1306.1	-0.152	0.0	1.207	1206.593	2.068	2068.2	2019-09-10 01:45:03
		6610	7:50:35:000	1301.7	-0.152	0.0	1.213	1212.707	2.076	2076.2	2019-09-10 01:47:28
		6639	7:53:00:000	1297.7	-0.151	0.0	1.219	1218.823	2.084	2084.2	2019-09-10 01:49:53
		6668	7:55:25:000	1293.7	-0.152	0.0	1.225	1224.937	2.092	2092.1	2019-09-10 01:52:18
		6697	7:57:50:000	1289.6	-0.152	0.0	1.231	1231.054	2.100	2100.0	2019-09-10 01:54:43
		6726	8:00:15:000	1285.6	-0.151	0.0	1.237	1237.168	2.108	2107.9	2019-09-10 01:57:08
		6755	8:02:40:000	1281.6	-0.152	0.0	1.243	1243.284	2.116	2115.7	2019-09-10 01:59:33
		6784	8:05:05:000	1277.9	-0.151	0.0	1.249	1249.398	2.124	2123.6	2019-09-10 02:01:58
		6813	8:07:30:000	1273.5	-0.152	0.0	1.256	1255.510	2.131	2131.4	2019-09-10 02:04:23
		6842	8:09:55:000	1269.8	-0.152	0.0	1.262	1261.624	2.139	2139.2	2019-09-10 02:06:48
		6871	8:12:20:000	1266.1	-0.152	0.0	1.268	1267.736	2.147	2146.9	2019-09-10 02:09:13
		6900	8:14:45:000	1262.0	-0.152	0.0	1.274	1273.854	2.155	2154.7	2019-09-10 02:11:38
		6929	8:17:10:000	1258.3	-0.152	0.0	1.280	1279.969	2.162	2162.4	2019-09-10 02:14:03
		6958	8:19:35:000	1254.6	-0.152	0.0	1.286	1286.084	2.170	2170.1	2019-09-10 02:16:28
		6987	8:22:00:000	1250.6	-0.152	0.0	1.292	1292.197	2.178	2177.8	2019-09-10 02:18:53
		7016	8:24:25:000	1246.8	-0.152	0.0	1.298	1298.313	2.185	2185.4	2019-09-10 02:21:18
		7045	8:26:50:000	1243.4	-0.152	0.0	1.304	1304.424	2.193	2193.0	2019-09-10 02:23:43
		7074	8:29:15:000	1239.7	-0.152	0.0	1.311	1310.541	2.201	2200.6	2019-09-10 02:26:08
		7103	8:31:40:000	1236.3	-0.152	0.0	1.317	1316.657	2.208	2208.2	2019-09-10 02:28:33
		7132	8:34:05:000	1232.3	-0.152	0.0	1.323	1322.774	2.216	2215.8	2019-09-10 02:30:58
		7161	8:36:30:000	1228.9	-0.152	0.0	1.329	1328.890	2.223	2223.3	2019-09-10 02:33:23
		7190	8:38:55:000	1225.5	-0.152	0.0	1.335	1335.006	2.231	2230.8	2019-09-10 02:35:48
		7219	8:41:20:000	1222.0	-0.152	0.0	1.341	1341.123	2.238	2238.3	2019-09-10 02:38:13
		7248	8:43:45:000	1218.6	-0.151	0.0	1.347	1347.240	2.246	2245.8	2019-09-10 02:40:38
		7277	8:46:10:000	1215.5	-0.152	0.0	1.353	1353.359	2.253	2253.2	2019-09-10 02:43:03
		7306	8:48:35:000	1211.8	-0.152	0.0	1.359	1359.475	2.261	2260.7	2019-09-10 02:45:28
		7335	8:51:00:000	1208.4	-0.152	0.0	1.366	1365.593	2.268	2268.1	2019-09-10 02:47:53
		7364	8:53:25:000	1205.3	-0.152	0.0	1.372	1371.710	2.275	2275.5	2019-09-10 02:50:18
		7393	8:55:50:000	1202.2	-0.152	0.0	1.378	1377.827	2.283	2282.9	2019-09-10 02:52:43
		7422	8:58:15:000	1199.1	-0.152	0.0	1.384	1383.944	2.290	2290.2	2019-09-10 02:55:08
		7451	9:00:40:000	1195.7	-0.152	0.0	1.390	1390.059	2.298	2297.5	2019-09-10 02:57:33
		7480	9:03:05:000	1192.6	-0.152	0.0	1.396	1396.175	2.305	2304.9	2019-09-10 02:59:58
		7509	9:05:30:000	1189.2	-0.152	0.0	1.402	1402.290	2.312	2312.1	2019-09-10 03:02:23
		7538	9:07:55:000	1186.4	-0.152	0.0	1.408	1408.406	2.319	2319.4	2019-09-10 03:04:48
		7567	9:10:20:000	1183.3	-0.152	0.0	1.415	1414.521	2.327	2326.7	2019-09-10 03:07:13
		7596	9:12:45:000	1180.2	-0.152	0.0	1.421	1420.635	2.334	2333.9	2019-09-10 03:09:38
		7625	9:15:10:000	1177.1	-0.152	0.0	1.427	1426.749	2.341	2341.1	2019-09-10 03:12:03
		7654	9:17:35:000	1174.0	-0.151	0.0	1.433	1432.864	2.348	2348.3	2019-09-10 03:14:28
		7683	9:20:00:000	1170.6	-0.152	0.0	1.439	1438.980	2.355	2355.5	2019-09-10 03:16:53
		7712	9:22:25:000	1167.8	-0.152	0.0	1.445	1445.095	2.363	2362.7	2019-09-10 03:19:18
		7741	9:24:50:000	1165.0	-0.152	0.0	1.451	1451.213	2.370	2369.8	2019-09-10 03:21:43
		7770	9:27:15:000	1161.9	-0.152	0.0	1.457	1457.330	2.377	2376.9	2019-09-10 03:24:08
		7799	9:29:40:000	1159.1	-0.152	0.0	1.463	1463.445	2.384	2384.0	2019-09-10 03:26:33
		7828	9:32:05:000	1156.3	-0.152	0.0	1.470	1469.560	2.391	2391.1	2019-09-10 03:28:58
		7857	9:34:30:000	1153.8	-0.151	0.0	1.476	1475.673	2.398	2398.2	2019-09-10 03:31:23
		7886	9:36:55:000	1150.7	-0.152	0.0	1.482	1481.792	2.405	2405.2	2019-09-10 03:33:48
		7915	9:39:20:000	1148.0	-0.152	0.0	1.488	1487.908	2.412	2412.3	2019-09-10 03:36:13
		7944	9:41:45:000	1145.2	-0.152	0.0	1.494	1494.024	2.419	2419.3	2019-09-10 03:38:38
		7973	9:44:10:000	1142.4	-0.152	0.0	1.500	1500.139	2.426	2426.3	2019-09-10 03:41:03
		8002	9:46:35:000	1139.9	-0.152	0.0	1.506	1506.255	2.433	2433.3	2019-09-10 03:43:28
		8031	9:49:00:000	1137.1	-0.152	0.0	1.512	1512.369	2.440	2440.3	2019-09-10 03:45:53
		8060	9:51:25:000	1134.3	-0.152	0.0	1.518	1518.486	2.447	2447.2	2019-09-10 03:48:18
		8089	9:53:50:000	1131.8	-0.152	0.0	1.525	1524.604	2.454	2454.1	2019-09-10 03:50:43
		8118	9:56:15:000	1128.7	-0.152	0.0	1.531	1530.719	2.461	2461.1	2019-09-10 03:53:08
		8147	9:58:40:000	1125.9	-0.152	0.0	1.537	1536.838	2.468	2468.0	2019-09-10 03:55:33
		8176	10:01:05:000	1123.5	-0.152	0.0	1.543	1542.955	2.475	2474.8	2019-09-10 03:57:58
		8205	10:03:30:000	1120.7	-0.151	0.0	1.549	1549.074	2.482	2481.7	2019-09-10 04:00:23
		8234	10:05:55:000	1117.9	-0.152	0.0	1.555	1555.194	2.489	2488.6	2019-09-10 04:02:48
		8263	10:08:20:000	1115.4	-0.152	0.0	1.561	1561.313	2.495	2495.4	2019-09-10 04:05:13
		8292	10:10:45:000	1112.9	-0.152	0.0	1.567	1567.431	2.502	2502.2	2019-09-10 04:07:38
		8321	10:13:10:000	1110.1	-0.152	0.0	1.574	1573.550	2.509	2509.0	2019-09-10 04:10:03
		8350	10:15:35:000	1107.3	-0.152	0.0	1.580	1579.666	2.516	2515.8	2019-09-10 04:12:28
		8379	10:18:00:000	1104.6	-0.151	0.0	1.586	1585.783	2.523	2522.6	2019-09-10 04:14:53
		8408	10:20:25:000	1102.1	-0.152	0.0	1.592	1591.901	2.529	2529.4	2019-09-10 04:17:18
		8437	10:22:50:000	1099.3	-0.152	0.0	1.598	1598.021	2.536	2536.1	2019-09-10 04:19:43
		8466	10:25:15:000	1096.8	-0.152	0.0	1.604	1604.138	2.543	2542.8	2019-09-10 04:22:08
		8495	10:27:40:000	1094.0	-0.152	0.0	1.610	1610.257	2.550	2549.5	2019-09-10 04:24:33
		8524	10:30:05:000	1091.2	-0.151	0.0	1.616	1616.372	2.556	2556.2	2019-09-10 04:26:58
		8553	10:32:30:000	1088.4	-0.152	0.0	1.622	1622.488	2.563	2562.9	2019-09-10 04:29:23
		8582	10:34:55:000	1085.6	-0.152	0.0	1.629	1628.605	2.570	2569.5	2019-09-10 04:31:48
		8611	10:37:20:000	1083.2	-0.152	0.0	1.635	1634.720	2.576	2576.2	2019-09-10 04:34:13
		8640	10:39:45:000	1080.4	-0.152	0.0	1.641	1640.834	2.583	2582.8	2019-09-10 04:36:38
		8669	10:42:10:000	1077.6	-0.152	0.0	1.647	1646.952	2.589	2589.4	2019-09-10 04:39:03
		8698	10:44:35:000	1075.1	-0.152	0.0	1.653	1653.068	2.596	2596.0	2019-09-10 04:41:28
		8727	10:47:00:000	1072.3	-0.152	0.0	1.659	1659.185	2.603	2602.6	2019-09-10 04:43:53
		8756	10:49:25:000	1069.8	-0.152	0.0	1.665	1665.302	2.609	2609.1	2019-09-10 04:46:18
		8785	10:51:50:000	1066.7	-0.151	0.0	1.671	1671.419	2.616	2615.7	2019-09-10 04:48:43
		8814	10:54:15:000	1063.9	-0.151	0.0	1.678	1677.535	2.622	2622.2	2019-09-10 04:51:08
		8843	10:56:40:000	1061.5	-0.152	0.0	1.684	1683.649	2.629	2628.7	2019-09-10 04:53:33
		8872	10:59:05:000	1058.4	-0.152	0.0	1.690	1689.765	2.635	2635.2	2019-09-10 04:55:58
		8901	11:01:30:000	1055.9	-0.152	0.0	1.696	1695.883	2.642	2641.7	2019-09-10 04:58:23
		8930	11:03:55:000	1053.1	-0.152	0.0	1.702	1702.002	2.648	2648.1	2019-09-10 05:00:48
		8959	11:06:20:000	1050.3	-0.152	0.0	1.708	1708.123	2.655	2654.5	2019-09-10 05:03:13
		8988	11:08:45:000	1047.5	-0.152	0.0	1.714	1714.242	2.661	2661.0	2019-09-10 05:05:38
		9017	11:11:10:000	1044.4	-0.152	0.0	1.720	1720.362	2.667	2667.4	2019-09-10 05:08:03
		9046	11:13:35:000	1041.6	-0.152	0.0	1.726	1726.479	2.674	2673.8	2019-09-10 05:10:28
		9075	11:16:00:000	1038.8	-0.152	0.0	1.733	1732.598	2.680	2680.1	2019-09-10 05:12:53
		9104	11:18:25:000	1036.0	-0.152	0.0	1.739	1738.717	2.686	2686.5	2019-09-10 05:15:18
		9133	11:20:50:000	1033.6	-0.152	0.0	1.745	1744.837	2.693	2692.8	2019-09-10 05:17:43
		9162	11:23:15:000	1030.8	-0.152	0.0	1.751	1750.955	2.699	2699.1	2019-09-10 05:20:08
		9191	11:25:40:000	1028.0	-0.152	0.0	1.757	1757.073	2.705	2705.4	2019-09-10 05:22:33
		9220	11:28:05:000	1024.9	-0.152	0.0	1.763	1763.191	2.712	2711.7	2019-09-10 05:24:58
		9249	11:30:30:000	1022.1	-0.152	0.0	1.769	1769.307	2.718	2718.0	2019-09-10 05:27:23
		9278	11:32:55:000	1019.3	-0.151	0.0	1.775	1775.421	2.724	2724.2	2019-09-10 05:29:48
		9307	11:35:20:000	1016.5	-0.152	0.0	1.782	1781.537	2.730	2730.5	2019-09-10 05:32:13
		9336	11:37:45:000	1013.7	-0.152	0.0	1.788	1787.654	2.737	2736.7	2019-09-10 05:34:38
		9365	11:40:10:000	1010.9	-0.152	0.0	1.794	1793.775	2.743	2742.9	2019-09-10 05:37:03
		9394	11:42:35:000	1008.1	-0.152	0.0	1.800	1799.896	2.749	2749.0	2019-09-10 05:39:28
		9423	11:45:00:000	1005.0	-0.152	0.0	1.806	1806.014	2.755	2755.2	2019-09-10 05:41:53
		9452	11:47:25:000	1002.2	-0.152	0.0	1.812	1812.136	2.761	2761.4	2019-09-10 05:44:18
		9480	0:00:05:000	1020.8	0.000	0.0	0.000	0.000	0.000	0.0	2019-09-10 05:46:28
		9507	0:01:15:000	1085.3	0.152	0.0	0.003	3.166	0.003	3.4	2019-09-10 05:48:38
		9536	0:03:40:000	1124.4	0.152	0.0	0.009	9.286	0.010	10.2	2019-09-10 05:51:03
		9565	0:06:05:000	1154.2	0.152	0.0	0.015	15.406	0.017	17.2	2019-09-10 05:53:28
		9594	0:08:30:000	1178.6	0.152	0.0	0.022	21.526	0.024	24.3	2019-09-10 05:55:53
		9623	0:10:55:000	1199.1	0.152	0.0	0.028	27.646	0.032	31.6	2019-09-10 05:58:18
		9652	0:13:20:000	1216.5	0.152	0.0	0.034	33.765	0.039	39.0	2019-09-10 06:00:43
		9681	0:15:45:000	1231.7	0.152	0.0	0.040	39.886	0.046	46.5	2019-09-10 06:03:08
		9710	0:18:10:000	1245.3	0.152	0.0	0.046	46.006	0.054	54.1	2019-09-10 06:05:33
		9739	0:20:35:000	1257.7	0.152	0.0	0.052	52.127	0.062	61.7	2019-09-10 06:07:58
		9768	0:23:00:000	1269.2	0.151	0.0	0.058	58.249	0.069	69.5	2019-09-10 06:10:23
		9797	0:25:25:000	1279.7	0.152	0.0	0.064	64.368	0.077	77.3	2019-09-10 06:12:48
		9826	0:27:50:000	1289.6	0.152	0.0	0.070	70.487	0.085	85.2	2019-09-10 06:15:13
		9855	0:30:15:000	1298.9	0.152	0.0	0.077	76.608	0.093	93.1	2019-09-10 06:17:38
		9884	0:32:40:000	1307.9	0.152	0.0	0.083	82.726	0.101	101.1	2019-09-10 06:20:03
		9913	0:35:05:000	1316.9	0.152	0.0	0.089	88.847	0.109	109.1	2019-09-10 06:22:28
		9942	0:37:30:000	1325.9	0.152	0.0	0.095	94.968	0.117	117.2	2019-09-10 06:24:53
		9971	0:39:55:000	1334.3	0.152	0.0	0.101	101.086	0.125	125.4	2019-09-10 06:27:18
		10000	0:42:20:000	1343.0	0.152	0.0	0.107	107.208	0.134	133.6	2019-09-10 06:29:43
		10029	0:44:45:000	1351.3	0.152	0.0	0.113	113.329	0.142	141.8	2019-09-10 06:32:08
		10058	0:47:10:000	1360.0	0.152	0.0	0.119	119.449	0.150	150.1	2019-09-10 06:34:33
		10087	0:49:35:000	1368.4	0.152	0.0	0.126	125.570	0.158	158.5	2019-09-10 06:36:58
		10116	0:52:00:000	1376.4	0.152	0.0	0.132	131.689	0.167	166.9	2019-09-10 06:39:23
		10145	0:54:25:000	1384.8	0.152	0.0	0.138	137.809	0.175	175.4	2019-09-10 06:41:48
		10174	0:56:50:000	1392.2	0.152	0.0	0.144	143.930	0.184	183.9	2019-09-10 06:44:13
		10203	0:59:15:000	1400.3	0.152	0.0	0.150	150.052	0.192	192.4	2019-09-10 06:46:38
		10232	1:01:40:000	1408.1	0.152	0.0	0.156	156.173	0.201	201.0	2019-09-10 06:49:03
		10261	1:04:05:000	1415.5	0.152	0.0	0.162	162.295	0.210	209.7	2019-09-10 06:51:28
		10290	1:06:30:000	1422.9	0.152	0.0	0.168	168.416	0.218	218.4	2019-09-10 06:53:53
		10319	1:08:55:000	1430.7	0.152	0.0	0.174	174.494	0.227	227.1	2019-09-10 06:56:18
		10348	1:11:20:000	1437.2	0.152	0.0	0.181	180.615	0.236	235.9	2019-09-10 06:58:43
		10377	1:13:45:000	1444.3	0.152	0.0	0.187	186.735	0.245	244.7	2019-09-10 07:01:08
		10406	1:16:10:000	1451.2	0.152	0.0	0.193	192.856	0.254	253.6	2019-09-10 07:03:33
		10435	1:18:35:000	1457.7	0.152	0.0	0.199	198.977	0.262	262.5	2019-09-10 07:05:58
		10464	1:21:00:000	1464.2	0.152	0.0	0.205	205.098	0.271	271.4	2019-09-10 07:08:23
		10493	1:23:25:000	1470.7	0.152	0.0	0.211	211.217	0.280	280.4	2019-09-10 07:10:48
		10522	1:25:50:000	1476.6	0.152	0.0	0.217	217.338	0.289	289.5	2019-09-10 07:13:13
		10551	1:28:15:000	1483.1	0.152	0.0	0.223	223.459	0.299	298.5	2019-09-10 07:15:38
		10580	1:30:40:000	1489.0	0.152	0.0	0.230	229.579	0.308	307.6	2019-09-10 07:18:03
		10609	1:33:05:000	1494.9	0.152	0.0	0.236	235.700	0.317	316.8	2019-09-10 07:20:28
		10638	1:35:30:000	1500.8	0.152	0.0	0.242	241.820	0.326	326.0	2019-09-10 07:22:53
		10667	1:37:55:000	1506.6	0.152	0.0	0.248	247.941	0.335	335.2	2019-09-10 07:25:18
		10696	1:40:20:000	1512.5	0.152	0.0	0.254	254.060	0.344	344.4	2019-09-10 07:27:43
		10725	1:42:45:000	1518.1	0.152	0.0	0.260	260.181	0.354	353.7	2019-09-10 07:30:08
		10754	1:45:10:000	1523.7	0.152	0.0	0.266	266.302	0.363	363.0	2019-09-10 07:32:33
		10783	1:47:35:000	1529.3	0.152	0.0	0.272	272.422	0.372	372.4	2019-09-10 07:34:58
		10812	1:50:00:000	1534.5	0.152	0.0	0.279	278.541	0.382	381.8	2019-09-10 07:37:23
		10841	1:52:25:000	1540.1	0.152	0.0	0.285	284.663	0.391	391.2	2019-09-10 07:39:48
		10870	1:54:50:000	1545.4	0.152	0.0	0.291	290.784	0.401	400.7	2019-09-10 07:42:13
		10899	1:57:15:000	1551.0	0.152	0.0	0.297	296.903	0.410	410.2	2019-09-10 07:44:38
		10928	1:59:40:000	1555.9	0.152	0.0	0.303	303.023	0.420	419.7	2019-09-10 07:47:03
		10957	2:02:05:000	1561.2	0.152	0.0	0.309	309.141	0.429	429.2	2019-09-10 07:49:28
		10986	2:04:30:000	1566.5	0.152	0.0	0.315	315.262	0.439	438.8	2019-09-10 07:51:53
		11015	2:06:55:000	1571.8	0.152	0.0	0.321	321.382	0.448	448.4	2019-09-10 07:54:18
		11044	2:09:20:000	1576.7	0.152	0.0	0.328	327.503	0.458	458.1	2019-09-10 07:56:43
		11073	2:11:45:000	1581.7	0.152	0.0	0.334	333.624	0.468	467.8	2019-09-10 07:59:08
		11102	2:14:10:000	1586.9	0.152	0.0	0.340	339.745	0.477	477.5	2019-09-10 08:01:33
		11131	2:16:35:000	1591.9	0.152	0.0	0.346	345.867	0.487	487.2	2019-09-10 08:03:58
		11160	2:19:00:000	1596.9	0.152	0.0	0.352	351.988	0.497	497.0	2019-09-10 08:06:23
		11189	2:21:25:000	1601.5	0.152	0.0	0.358	358.108	0.507	506.8	2019-09-10 08:08:48
		11218	2:23:50:000	1606.5	0.152	0.0	0.364	364.229	0.517	516.6	2019-09-10 08:11:13
		11247	2:26:15:000	1611.1	0.152	0.0	0.370	370.351	0.527	526.5	2019-09-10 08:13:38
		11276	2:28:40:000	1615.8	0.152	0.0	0.376	376.471	0.536	536.4	2019-09-10 08:16:03
		11305	2:31:05:000	1620.7	0.152	0.0	0.383	382.593	0.546	546.3	2019-09-10 08:18:28
		11334	2:33:30:000	1625.1	0.152	0.0	0.389	388.714	0.556	556.3	2019-09-10 08:20:53
		11363	2:35:55:000	1630.0	0.152	0.0	0.395	394.835	0.566	566.2	2019-09-10 08:23:18
		11392	2:38:20:000	1634.4	0.152	0.0	0.401	400.956	0.576	576.3	2019-09-10 08:25:43
		11421	2:40:45:000	1639.0	0.152	0.0	0.407	407.077	0.586	586.3	2019-09-10 08:28:08
		11450	2:43:10:000	1643.4	0.152	0.0	0.413	413.198	0.596	596.4	2019-09-10 08:30:33
		11479	2:45:35:000	1648.0	0.152	0.0	0.419	419.319	0.606	606.4	2019-09-10 08:32:58
		11508	2:48:00:000	1652.4	0.152	0.0	0.425	425.441	0.617	616.5	2019-09-10 08:35:23
		11537	2:50:25:000	1656.4	0.152	0.0	0.432	431.562	0.627	626.7	2019-09-10 08:37:48
		11566	2:52:50:000	1660.4	0.152	0.0	0.438	437.682	0.637	636.9	2019-09-10 08:40:13
		11595	2:55:15:000	1664.4	0.152	0.0	0.444	443.801	0.647	647.1	2019-09-10 08:42:38
		11624	2:57:40:000	1668.8	0.152	0.0	0.450	449.921	0.657	657.3	2019-09-10 08:45:03
		11653	3:00:05:000	1672.5	0.152	0.0	0.456	456.042	0.668	667.5	2019-09-10 08:47:28
		11682	3:02:30:000	1675.9	0.152	0.0	0.462	462.163	0.678	677.8	2019-09-10 08:49:53
		11711	3:04:55:000	1679.3	0.152	0.0	0.468	468.284	0.688	688.1	2019-09-10 08:52:18
		11740	3:07:20:000	1682.7	0.152	0.0	0.474	474.404	0.698	698.4	2019-09-10 08:54:43
		11769	3:09:45:000	1686.1	0.152	0.0	0.481	480.523	0.709	708.7	2019-09-10 08:57:08
		11798	3:12:10:000	1689.6	0.152	0.0	0.487	486.644	0.719	719.0	2019-09-10 08:59:33
		11827	3:14:35:000	1692.3	0.152	0.0	0.493	492.764	0.729	729.4	2019-09-10 09:01:58
		11856	3:17:00:000	1695.1	0.152	0.0	0.499	498.885	0.740	739.8	2019-09-10 09:04:23
		11885	3:19:25:000	1698.2	0.152	0.0	0.505	505.003	0.750	750.2	2019-09-10 09:06:48
		11914	3:21:50:000	1700.7	0.151	0.0	0.511	511.121	0.761	760.6	2019-09-10 09:09:13
		11943	3:24:15:000	1703.5	0.152	0.0	0.517	517.241	0.771	771.0	2019-09-10 09:11:38
		11972	3:26:40:000	1706.0	0.152	0.0	0.523	523.362	0.781	781.5	2019-09-10 09:14:03
		12001	3:29:05:000	1708.8	0.152	0.0	0.529	529.483	0.792	792.0	2019-09-10 09:16:28
		12030	3:31:30:000	1711.3	0.152	0.0	0.536	535.603	0.802	802.4	2019-09-10 09:18:53
		12059	3:33:55:000	1713.7	0.152	0.0	0.542	541.722	0.813	812.9	2019-09-10 09:21:18
		12088	3:36:20:000	1716.2	0.152	0.0	0.548	547.842	0.823	823.5	2019-09-10 09:23:43
		12117	3:38:45:000	1718.4	0.152	0.0	0.554	553.962	0.834	834.0	2019-09-10 09:26:08
		12146	3:41:10:000	1721.2	0.152	0.0	0.560	560.083	0.845	844.5	2019-09-10 09:28:33
		12175	3:43:35:000	1723.4	0.152	0.0	0.566	566.204	0.855	855.1	2019-09-10 09:30:58
		12204	3:46:00:000	1725.8	0.152	0.0	0.572	572.325	0.866	865.7	2019-09-10 09:33:23
		12233	3:48:25:000	1728.0	0.151	0.0	0.578	578.443	0.876	876.3	2019-09-10 09:35:48
		12262	3:50:50:000	1730.8	0.152	0.0	0.585	584.562	0.887	886.8	2019-09-10 09:38:13
		12291	3:53:15:000	1733.0	0.152	0.0	0.591	590.682	0.897	897.5	2019-09-10 09:40:38
		12320	3:55:40:000	1735.4	0.152	0.0	0.597	596.801	0.908	908.1	2019-09-10 09:43:03
		12349	3:58:05:000	1737.9	0.152	0.0	0.603	602.922	0.919	918.7	2019-09-10 09:45:28
		12378	4:00:30:000	1740.4	0.152	0.0	0.609	609.041	0.929	929.4	2019-09-10 09:47:53
		12407	4:02:55:000	1742.9	0.152	0.0	0.615	615.162	0.940	940.1	2019-09-10 09:50:18
		12436	4:05:20:000	1745.1	0.152	0.0	0.621	621.282	0.951	950.8	2019-09-10 09:52:43
		12465	4:07:45:000	1747.5	0.152	0.0	0.627	627.402	0.961	961.5	2019-09-10 09:55:08
		12494	4:10:10:000	1750.3	0.152	0.0	0.634	633.523	0.972	972.2	2019-09-10 09:57:33
		12523	4:12:35:000	1753.1	0.152	0.0	0.640	639.644	0.983	983.0	2019-09-10 09:59:58
		12552	4:15:00:000	1755.6	0.152	0.0	0.646	645.766	0.994	993.7	2019-09-10 10:02:23
		12581	4:17:25:000	1758.1	0.152	0.0	0.652	651.888	1.004	1004.5	2019-09-10 10:04:48
		12610	4:19:50:000	1760.6	0.152	0.0	0.658	658.008	1.015	1015.3	2019-09-10 10:07:13
		12639	4:22:15:000	1763.3	0.152	0.0	0.664	664.130	1.026	1026.1	2019-09-10 10:09:38
		12668	4:24:40:000	1766.1	0.152	0.0	0.670	670.251	1.037	1036.9	2019-09-10 10:12:03
		12697	4:27:05:000	1768.9	0.152	0.0	0.676	676.372	1.048	1047.7	2019-09-10 10:14:28
		12726	4:29:30:000	1772.0	0.151	0.0	0.682	682.492	1.059	1058.6	2019-09-10 10:16:53
		12755	4:31:55:000	1774.8	0.152	0.0	0.689	688.612	1.069	1069.5	2019-09-10 10:19:18
		12784	4:34:20:000	1777.6	0.152	0.0	0.695	694.734	1.080	1080.4	2019-09-10 10:21:43
		12813	4:36:45:000	1780.7	0.152	0.0	0.701	700.854	1.091	1091.3	2019-09-10 10:24:08
		12842	4:39:10:000	1783.8	0.152	0.0	0.707	706.977	1.102	1102.2	2019-09-10 10:26:33
		12871	4:41:35:000	1786.9	0.152	0.0	0.713	713.098	1.113	1113.1	2019-09-10 10:28:58
		12900	4:44:00:000	1790.0	0.151	0.0	0.719	719.218	1.124	1124.1	2019-09-10 10:31:23
		12929	4:46:25:000	1793.4	0.152	0.0	0.725	725.340	1.135	1135.1	2019-09-10 10:33:48
		12958	4:48:50:000	1796.8	0.152	0.0	0.731	731.461	1.146	1146.1	2019-09-10 10:36:13
		12987	4:51:15:000	1800.2	0.152	0.0	0.738	737.583	1.157	1157.1	2019-09-10 10:38:38
		13016	4:53:40:000	1803.3	0.152	0.0	0.744	743.704	1.168	1168.2	2019-09-10 10:41:03
		13045	4:56:05:000	1807.1	0.152	0.0	0.750	749.826	1.179	1179.2	2019-09-10 10:43:28
		13074	4:58:30:000	1810.5	0.152	0.0	0.756	755.946	1.190	1190.3	2019-09-10 10:45:53
		13103	5:00:55:000	1814.5	0.152	0.0	0.762	762.068	1.201	1201.5	2019-09-10 10:48:18
		13132	5:03:20:000	1817.9	0.152	0.0	0.768	768.191	1.213	1212.6	2019-09-10 10:50:43
		13161	5:05:45:000	1821.9	0.152	0.0	0.774	774.313	1.224	1223.7	2019-09-10 10:53:08
		13190	5:08:10:000	1825.7	0.152	0.0	0.780	780.433	1.235	1234.9	2019-09-10 10:55:33
		13219	5:10:35:000	1829.7	0.152	0.0	0.787	786.555	1.246	1246.1	2019-09-10 10:57:58
		13248	5:13:00:000	1834.0	0.152	0.0	0.793	792.677	1.257	1257.4	2019-09-10 11:00:23
		13277	5:15:25:000	1838.1	0.152	0.0	0.799	798.798	1.269	1268.6	2019-09-10 11:02:48
		13306	5:17:50:000	1842.1	0.152	0.0	0.805	804.917	1.280	1279.9	2019-09-10 11:05:13
		13335	5:20:15:000	1846.4	0.152	0.0	0.811	811.038	1.291	1291.2	2019-09-10 11:07:38
		13364	5:22:40:000	1850.8	0.152	0.0	0.817	817.158	1.303	1302.6	2019-09-10 11:10:03
		13393	5:25:05:000	1855.4	0.152	0.0	0.823	823.279	1.314	1313.9	2019-09-10 11:12:28
		13422	5:27:30:000	1860.1	0.152	0.0	0.829	829.399	1.325	1325.3	2019-09-10 11:14:53
		13451	5:29:55:000	1864.4	0.152	0.0	0.836	835.519	1.337	1336.7	2019-09-10 11:17:18
		13480	5:32:20:000	1868.7	0.152	0.0	0.842	841.641	1.348	1348.2	2019-09-10 11:19:43
		13509	5:34:45:000	1873.1	0.152	0.0	0.848	847.763	1.360	1359.7	2019-09-10 11:22:08
		13538	5:37:10:000	1877.7	0.152	0.0	0.854	853.884	1.371	1371.2	2019-09-10 11:24:33
		13567	5:39:35:000	1881.8	0.151	0.0	0.860	860.004	1.383	1382.7	2019-09-10 11:26:58
		13596	5:42:00:000	1885.8	0.152	0.0	0.866	866.124	1.394	1394.2	2019-09-10 11:29:23
		13625	5:44:25:000	1889.5	0.152	0.0	0.872	872.243	1.406	1405.8	2019-09-10 11:31:48
		13654	5:46:50:000	1893.6	0.152	0.0	0.878	878.363	1.417	1417.4	2019-09-10 11:34:13
		13683	5:49:15:000	1897.9	0.152	0.0	0.884	884.484	1.429	1429.0	2019-09-10 11:36:38
		13712	5:51:40:000	1901.9	0.152	0.0	0.891	890.605	1.441	1440.7	2019-09-10 11:39:03
		13741	5:54:05:000	1906.3	0.152	0.0	0.897	896.725	1.452	1452.4	2019-09-10 11:41:28
		13770	5:56:30:000	1910.6	0.151	0.0	0.903	902.846	1.464	1464.1	2019-09-10 11:43:53
		13799	5:58:55:000	1915.9	0.152	0.0	0.909	908.965	1.476	1475.8	2019-09-10 11:46:18
		13828	6:01:20:000	1920.8	0.152	0.0	0.915	915.085	1.488	1487.6	2019-09-10 11:48:43
		13857	6:03:45:000	1926.1	0.152	0.0	0.921	921.204	1.499	1499.3	2019-09-10 11:51:08
		13886	6:06:10:000	1932.0	0.152	0.0	0.927	927.322	1.511	1511.2	2019-09-10 11:53:33
		13915	6:08:35:000	1938.2	0.152	0.0	0.933	933.439	1.523	1523.0	2019-09-10 11:55:58
		13944	6:11:00:000	1944.7	0.152	0.0	0.940	939.557	1.535	1534.9	2019-09-10 11:58:23
		13973	6:13:25:000	1951.2	0.152	0.0	0.946	945.676	1.547	1546.9	2019-09-10 12:00:48
		14002	6:15:50:000	1959.0	0.152	0.0	0.952	951.796	1.559	1558.9	2019-09-10 12:03:13
		14031	6:18:15:000	1966.4	0.151	0.0	0.958	957.916	1.571	1570.9	2019-09-10 12:05:38
		14060	6:20:40:000	1973.8	0.152	0.0	0.964	964.036	1.583	1583.0	2019-09-10 12:08:03
		14089	6:23:05:000	1982.2	0.152	0.0	0.970	970.154	1.595	1595.1	2019-09-10 12:10:28
		14118	6:25:30:000	1990.9	0.152	0.0	0.976	976.273	1.607	1607.3	2019-09-10 12:12:53
		14147	6:27:55:000	1999.6	0.152	0.0	0.982	982.394	1.620	1619.5	2019-09-10 12:15:18
		14176	6:30:20:000	2008.6	0.152	0.0	0.989	988.512	1.632	1631.8	2019-09-10 12:17:43
		14205	6:32:45:000	2017.6	0.152	0.0	0.995	994.631	1.644	1644.2	2019-09-10 12:20:08
		14234	6:35:10:000	2026.9	0.152	0.0	1.001	1000.749	1.657	1656.6	2019-09-10 12:22:33
		14263	6:37:35:000	2036.5	0.152	0.0	1.007	1006.868	1.669	1669.0	2019-09-10 12:24:58
		14292	6:40:00:000	2046.4	0.152	0.0	1.013	1012.988	1.682	1681.5	2019-09-10 12:27:23
		14321	6:42:25:000	2055.7	0.152	0.0	1.019	1019.107	1.694	1694.1	2019-09-10 12:29:48
		14350	6:44:50:000	2065.9	0.152	0.0	1.025	1025.227	1.707	1706.8	2019-09-10 12:32:13
		14379	6:47:15:000	2075.8	0.151	0.0	1.031	1031.345	1.719	1719.5	2019-09-10 12:34:38
		14408	6:49:40:000	2086.4	0.152	0.0	1.037	1037.465	1.732	1732.2	2019-09-10 12:37:03
		14437	6:52:05:000	2096.6	0.152	0.0	1.044	1043.583	1.745	1745.0	2019-09-10 12:39:28
		14466	6:54:30:000	2107.5	0.151	0.0	1.050	1049.701	1.758	1757.9	2019-09-10 12:41:53
		14495	6:56:55:000	2118.3	0.152	0.0	1.056	1055.820	1.771	1770.9	2019-09-10 12:44:18
		14524	6:59:20:000	2129.5	0.152	0.0	1.062	1061.940	1.784	1783.9	2019-09-10 12:46:43
		14553	7:01:45:000	2140.6	0.152	0.0	1.068	1068.056	1.797	1797.0	2019-09-10 12:49:08
		14582	7:04:10:000	2152.4	0.152	0.0	1.074	1074.174	1.810	1810.2	2019-09-10 12:51:33
		14611	7:06:35:000	2164.2	0.152	0.0	1.080	1080.295	1.823	1823.4	2019-09-10 12:53:58
		14640	7:09:00:000	2176.0	0.152	0.0	1.086	1086.414	1.837	1836.7	2019-09-10 12:56:23
		14669	7:11:25:000	2188.7	0.152	0.0	1.093	1092.531	1.850	1850.1	2019-09-10 12:58:48
		14698	7:13:50:000	2201.1	0.152	0.0	1.099	1098.651	1.864	1863.5	2019-09-10 13:01:13
		14727	7:16:15:000	2214.1	0.152	0.0	1.105	1104.768	1.877	1877.1	2019-09-10 13:03:38
		14756	7:18:40:000	2227.8	0.152	0.0	1.111	1110.884	1.891	1890.7	2019-09-10 13:06:03
		14785	7:21:05:000	2241.7	0.152	0.0	1.117	1117.003	1.904	1904.4	2019-09-10 13:08:28
		14814	7:23:30:000	2256.6	0.152	0.0	1.123	1123.122	1.918	1918.2	2019-09-10 13:10:53
		14843	7:25:55:000	2272.4	0.152	0.0	1.129	1129.239	1.932	1932.1	2019-09-10 13:13:18
		14872	7:28:20:000	2289.4	0.151	0.0	1.135	1135.357	1.946	1946.1	2019-09-10 13:15:43
		14901	7:30:45:000	2307.1	0.152	0.0	1.141	1141.475	1.960	1960.2	2019-09-10 13:18:08
		14930	7:33:10:000	2326.6	0.152	0.0	1.148	1147.594	1.974	1974.4	2019-09-10 13:20:33
		14959	7:35:35:000	2349.3	0.152	0.0	1.154	1153.709	1.989	1988.7	2019-09-10 13:22:58
		14988	7:38:00:000	2374.4	0.152	0.0	1.160	1159.827	2.003	2003.2	2019-09-10 13:25:23
		15017	7:40:25:000	2404.5	0.152	0.0	1.166	1165.947	2.018	2017.8	2019-09-10 13:27:48
		15046	7:42:50:000	2442.3	0.152	0.0	1.172	1172.065	2.033	2032.7	2019-09-10 13:30:13
		15075	7:45:15:000	2491.0	0.152	0.0	1.178	1178.183	2.048	2047.8	2019-09-10 13:32:38
		15104	7:47:40:000	2554.5	0.152	0.0	1.184	1184.302	2.063	2063.3	2019-09-10 13:35:03
		15133	7:50:05:000	2633.3	0.152	0.0	1.190	1190.422	2.079	2079.2	2019-09-10 13:37:28
		15162	7:52:30:000	2720.7	0.152	0.0	1.197	1196.542	2.096	2095.6	2019-09-10 13:39:53
		15191	7:54:55:000	2812.8	0.152	0.0	1.203	1202.662	2.113	2112.6	2019-09-10 13:42:18
		15220	7:57:20:000	2899.3	0.152	0.0	1.209	1208.783	2.130	2130.1	2019-09-10 13:44:43
		15249	7:59:45:000	2977.7	0.152	0.0	1.215	1214.902	2.148	2148.2	2019-09-10 13:47:08
		15276	0:00:20:000	2473.6	-0.152	0.0	0.001	0.845	0.002	2.2	2019-09-10 13:49:11
		15305	0:02:45:000	2258.1	-0.152	0.0	0.007	6.965	0.016	16.4	2019-09-10 13:51:36
		15334	0:05:10:000	2200.5	-0.152	0.0	0.013	13.086	0.030	30.1	2019-09-10 13:54:01
		15363	0:07:35:000	2158.9	-0.152	0.0	0.019	19.207	0.043	43.4	2019-09-10 13:56:26
		15392	0:10:00:000	2125.8	-0.151	0.0	0.025	25.329	0.057	56.6	2019-09-10 13:58:51
		15421	0:12:25:000	2096.6	-0.152	0.0	0.031	31.447	0.070	69.5	2019-09-10 14:01:16
		15450	0:14:50:000	2070.9	-0.152	0.0	0.038	37.563	0.082	82.3	2019-09-10 14:03:41
		15479	0:17:15:000	2047.6	-0.152	0.0	0.044	43.684	0.095	94.9	2019-09-10 14:06:06
		15508	0:19:40:000	2026.5	-0.152	0.0	0.050	49.804	0.107	107.4	2019-09-10 14:08:31
		15537	0:22:05:000	2006.7	-0.152	0.0	0.056	55.923	0.120	119.8	2019-09-10 14:10:56
		15566	0:24:30:000	1988.4	-0.152	0.0	0.062	62.042	0.132	132.0	2019-09-10 14:13:21
		15595	0:26:55:000	1971.1	-0.152	0.0	0.068	68.160	0.144	144.1	2019-09-10 14:15:46
		15624	0:29:20:000	1954.9	-0.152	0.0	0.074	74.277	0.156	156.2	2019-09-10 14:18:11
		15653	0:31:45:000	1940.1	-0.151	0.0	0.080	80.394	0.168	168.1	2019-09-10 14:20:36
		15682	0:34:10:000	1925.8	-0.152	0.0	0.087	86.514	0.180	180.0	2019-09-10 14:23:01
		15711	0:36:35:000	1912.2	-0.152	0.0	0.093	92.633	0.192	191.7	2019-09-10 14:25:26
		15740	0:39:00:000	1899.4	-0.151	0.0	0.099	98.751	0.203	203.4	2019-09-10 14:27:51
		15769	0:41:25:000	1887.4	-0.152	0.0	0.105	104.868	0.215	215.0	2019-09-10 14:30:16
		15798	0:43:50:000	1875.9	-0.152	0.0	0.111	110.985	0.227	226.6	2019-09-10 14:32:41
		15827	0:46:15:000	1864.7	-0.152	0.0	0.117	117.101	0.238	238.0	2019-09-10 14:35:06
		15856	0:48:40:000	1854.5	-0.152	0.0	0.123	123.219	0.249	249.4	2019-09-10 14:37:31
		15885	0:51:05:000	1844.3	-0.151	0.0	0.129	129.334	0.261	260.8	2019-09-10 14:39:56
		15914	0:53:30:000	1835.0	-0.152	0.0	0.135	135.453	0.272	272.0	2019-09-10 14:42:21
		15943	0:55:55:000	1825.7	-0.152	0.0	0.142	141.571	0.283	283.2	2019-09-10 14:44:46
		15972	0:58:20:000	1817.3	-0.152	0.0	0.148	147.687	0.294	294.4	2019-09-10 14:47:11
		16001	1:00:45:000	1808.9	-0.152	0.0	0.154	153.802	0.306	305.5	2019-09-10 14:49:36
		16030	1:03:10:000	1801.5	-0.152	0.0	0.160	159.921	0.317	316.6	2019-09-10 14:52:01
		16059	1:05:35:000	1794.0	-0.152	0.0	0.166	166.039	0.328	327.6	2019-09-10 14:54:26
		16088	1:08:00:000	1787.2	-0.152	0.0	0.172	172.155	0.339	338.6	2019-09-10 14:56:51
		16117	1:10:25:000	1781.0	-0.152	0.0	0.178	178.271	0.350	349.5	2019-09-10 14:59:16
		16146	1:12:50:000	1775.1	-0.152	0.0	0.184	184.386	0.360	360.4	2019-09-10 15:01:41
		16175	1:15:15:000	1769.5	-0.152	0.0	0.191	190.500	0.371	371.3	2019-09-10 15:04:06
		16204	1:17:40:000	1764.6	-0.152	0.0	0.197	196.611	0.382	382.1	2019-09-10 15:06:31
		16233	1:20:05:000	1759.9	-0.152	0.0	0.203	202.725	0.393	392.9	2019-09-10 15:08:56
		16262	1:22:30:000	1755.9	-0.152	0.0	0.209	208.840	0.404	403.7	2019-09-10 15:11:21
		16291	1:24:55:000	1751.9	-0.152	0.0	0.215	214.954	0.414	414.4	2019-09-10 15:13:46
		16320	1:27:20:000	1747.8	-0.152	0.0	0.221	221.071	0.425	425.1	2019-09-10 15:16:11
		16349	1:29:45:000	1744.1	-0.152	0.0	0.227	227.191	0.436	435.8	2019-09-10 15:18:36
		16378	1:32:10:000	1740.4	-0.152	0.0	0.233	233.308	0.447	446.5	2019-09-10 15:21:01
		16407	1:34:35:000	1736.7	-0.152	0.0	0.239	239.425	0.457	457.2	2019-09-10 15:23:26
		16436	1:37:00:000	1733.0	-0.152	0.0	0.246	245.538	0.468	467.8	2019-09-10 15:25:51
		16465	1:39:25:000	1728.6	-0.152	0.0	0.252	251.652	0.478	478.4	2019-09-10 15:28:16
		16494	1:41:50:000	1724.9	-0.152	0.0	0.258	257.763	0.489	489.0	2019-09-10 15:30:41
		16523	1:44:15:000	1720.9	-0.152	0.0	0.264	263.875	0.500	499.5	2019-09-10 15:33:06
		16552	1:46:40:000	1717.1	-0.152	0.0	0.270	269.989	0.510	510.1	2019-09-10 15:35:31
		16581	1:49:05:000	1713.4	-0.152	0.0	0.276	276.107	0.521	520.6	2019-09-10 15:37:56
		16610	1:51:30:000	1709.4	-0.152	0.0	0.282	282.225	0.531	531.1	2019-09-10 15:40:21
		16639	1:53:55:000	1705.4	-0.151	0.0	0.288	288.338	0.542	541.5	2019-09-10 15:42:46
		16668	1:56:20:000	1701.3	-0.151	0.0	0.294	294.454	0.552	552.0	2019-09-10 15:45:11
		16697	1:58:45:000	1697.6	-0.152	0.0	0.301	300.568	0.562	562.4	2019-09-10 15:47:36
		16726	2:01:10:000	1693.9	-0.152	0.0	0.307	306.684	0.573	572.8	2019-09-10 15:50:01
		16755	2:03:35:000	1690.2	-0.152	0.0	0.313	312.802	0.583	583.1	2019-09-10 15:52:26
		16784	2:06:00:000	1686.1	-0.152	0.0	0.319	318.920	0.593	593.5	2019-09-10 15:54:51
		16813	2:08:25:000	1682.4	-0.152	0.0	0.325	325.040	0.604	603.8	2019-09-10 15:57:16
		16842	2:10:50:000	1679.0	-0.152	0.0	0.331	331.158	0.614	614.1	2019-09-10 15:59:41
		16871	2:13:15:000	1675.6	-0.152	0.0	0.337	337.277	0.624	624.4	2019-09-10 16:02:06
		16900	2:15:40:000	1672.5	-0.152	0.0	0.343	343.396	0.635	634.7	2019-09-10 16:04:31
		16929	2:18:05:000	1669.1	-0.152	0.0	0.350	349.516	0.645	644.9	2019-09-10 16:06:56
		16958	2:20:30:000	1665.7	-0.151	0.0	0.356	355.634	0.655	655.1	2019-09-10 16:09:21
		16987	2:22:55:000	1662.6	-0.152	0.0	0.362	361.752	0.665	665.3	2019-09-10 16:11:46
		16999	2:23:55:000	1661.0	-0.152	0.0	0.364	364.284	0.670	669.5	2019-09-10 16:12:46